Folder: zuy/src/zuy/data

File: 5.msa
#FORMAT      : EMSA/MAS Spectral Data File
#VERSION     : 1.0
#TITLE       : 5
#DATE        : 02-FEB-2022
#TIME        : 16:14
#OWNER       :
#NPOINTS     : 2048.0
#NCOLUMNS    : 1.0
#XUNITS      : keV
#YUNITS      : counts
#DATATYPE    : XY
#XPERCHAN    : 0.01
#OFFSET      : -0.2
#SIGNALTYPE  : EDS_SEM
#CHOFFSET    : 20.0
#LIVETIME    : 19.9998
#REALTIME    : 24.582
#BEAMKV      : 20.0
#PROBECUR    : 1.210256
#MAGCAM      : 299.0
#XTILTSTGE   : 0.0
#AZIMANGLE   : 0.0
#ELEVANGLE   : 35.0
#XPOSITION mm: -10.3467
#YPOSITION mm: -9.5703
#ZPOSITION mm: 12.0498
##OXINSTPT   : 5
##OXINSTSTROB: 38.17
##OXINSTNDET : 1
##OXINSTELEMS: 6,8,13,14,16,19,20,30,56,38
##OXINSTLABEL: 6, 0.277, C K?1,2
##OXINSTLABEL: 8, 0.525, O K?1
##OXINSTLABEL: 13, 1.487, Al K?1
##OXINSTLABEL: 14, 1.740, Si K?1
##OXINSTLABEL: 16, 2.308, S K?1
##OXINSTLABEL: 16, 2.464, S K?1
##OXINSTLABEL: 19, 3.314, K K?1
##OXINSTLABEL: 19, 3.590, K K?1
##OXINSTLABEL: 19, 0.260, K Ll
##OXINSTLABEL: 20, 0.303, Ca Ll
##OXINSTLABEL: 20, 3.692, Ca K?1
##OXINSTLABEL: 20, 4.013, Ca K?1
##OXINSTLABEL: 20, 0.345, Ca L?1
##OXINSTLABEL: 30, 8.639, Zn K?1
##OXINSTLABEL: 30, 9.572, Zn K?1
##OXINSTLABEL: 30, 1.012, Zn L?1,2
##OXINSTLABEL: 30, 0.906, Zn L?
##OXINSTLABEL: 30, 0.884, Zn Ll
##OXINSTLABEL: 56, 4.466, Ba L?1
##OXINSTLABEL: 56, 4.828, Ba L?1
##OXINSTLABEL: 56, 5.157, Ba L?2,15
##OXINSTLABEL: 56, 4.331, Ba L?
##OXINSTLABEL: 56, 5.531, Ba L?1
##OXINSTLABEL: 56, 5.797, Ba L?2
##OXINSTLABEL: 56, 3.954, Ba Ll
##OXINSTLABEL: 56, 0.780, Ba M?
##OXINSTLABEL: 56, 0.601, Ba M?
##OXINSTLABEL: 56, 0.075, Ba N5-O3
##OXINSTLABEL: 38, 14.165, Sr K?1
##OXINSTLABEL: 38, 15.836, Sr K?1
##OXINSTLABEL: 38, 16.085, Sr K?2
##OXINSTLABEL: 38, 1.807, Sr L?1
##OXINSTLABEL: 38, 1.649, Sr L?
##OXINSTLABEL: 38, 1.582, Sr Ll
##OXINSTLABEL: 38, 0.114, Sr M?
#SPECTRUM    : Spectral Data Starts Here
-0.20000, 0.0
-0.13000, 0.0
-0.06000, 0.0
0.01000, 686.0
0.08000, 204.0
0.15000, 303.0
0.22000, 964.0
0.29000, 2861.0
0.36000, 155.0
0.43000, 324.0
0.50000, 5870.0
0.57000, 1461.0
0.64000, 301.0
0.71000, 319.0
0.78000, 536.0
0.85000, 406.0
0.92000, 468.0
0.99000, 2399.0
1.06000, 1647.0
1.13000, 385.0
1.20000, 323.0
1.27000, 409.0
1.34000, 383.0
1.41000, 440.0
1.48000, 1885.0
1.55000, 646.0
1.62000, 468.0
1.69000, 1040.0
1.76000, 2375.0
1.83000, 798.0
1.90000, 475.0
1.97000, 460.0
2.04000, 434.0
2.11000, 492.0
2.18000, 611.0
2.25000, 2474.0
2.32000, 7871.0
2.39000, 1295.0
2.46000, 891.0
2.53000, 513.0
2.60000, 415.0
2.67000, 384.0
2.74000, 368.0
2.81000, 359.0
2.88000, 366.0
2.95000, 352.0
3.02000, 358.0
3.09000, 363.0
3.16000, 349.0
3.23000, 373.0
3.30000, 525.0
3.37000, 448.0
3.44000, 329.0
3.51000, 376.0
3.58000, 458.0
3.65000, 1882.0
3.72000, 2739.0
3.79000, 619.0
3.86000, 339.0
3.93000, 483.0
4.00000, 723.0
4.07000, 531.0
4.14000, 316.0
4.21000, 290.0
4.28000, 318.0
4.35000, 523.0
4.42000, 2463.0
4.49000, 3678.0
4.56000, 950.0
4.63000, 348.0
4.70000, 342.0
4.77000, 971.0
4.84000, 1966.0
4.91000, 1101.0
4.98000, 495.0
5.05000, 329.0
5.12000, 651.0
5.19000, 749.0
5.26000, 314.0
5.33000, 220.0
5.40000, 230.0
5.47000, 310.0
5.54000, 418.0
5.61000, 300.0
5.68000, 195.0
5.75000, 241.0
5.82000, 265.0
5.89000, 216.0
5.96000, 202.0
6.03000, 197.0
6.10000, 185.0
6.17000, 161.0
6.24000, 182.0
6.31000, 171.0
6.38000, 192.0
6.45000, 187.0
6.52000, 173.0
6.59000, 127.0
6.66000, 160.0
6.73000, 154.0
6.80000, 158.0
6.87000, 157.0
6.94000, 130.0
7.01000, 136.0
7.08000, 144.0
7.15000, 150.0
7.22000, 118.0
7.29000, 145.0
7.36000, 133.0
7.43000, 137.0
7.50000, 141.0
7.57000, 131.0
7.64000, 113.0
7.71000, 137.0
7.78000, 134.0
7.85000, 113.0
7.92000, 136.0
7.99000, 121.0
8.06000, 119.0
8.13000, 108.0
8.20000, 136.0
8.27000, 111.0
8.34000, 127.0
8.41000, 121.0
8.48000, 172.0
8.55000, 488.0
8.62000, 920.0
8.69000, 593.0
8.76000, 213.0
8.83000, 119.0
8.90000, 119.0
8.97000, 87.0
9.04000, 97.0
9.11000, 94.0
9.18000, 98.0
9.25000, 92.0
9.32000, 99.0
9.39000, 97.0
9.46000, 122.0
9.53000, 185.0
9.60000, 182.0
9.67000, 104.0
9.74000, 99.0
9.81000, 76.0
9.88000, 71.0
9.95000, 73.0
10.02000, 82.0
10.09000, 83.0
10.16000, 62.0
10.23000, 60.0
10.30000, 73.0
10.37000, 68.0
10.44000, 73.0
10.51000, 70.0
10.58000, 71.0
10.65000, 69.0
10.72000, 53.0
10.79000, 67.0
10.86000, 66.0
10.93000, 69.0
11.00000, 65.0
11.07000, 59.0
11.14000, 68.0
11.21000, 63.0
11.28000, 52.0
11.35000, 59.0
11.42000, 51.0
11.49000, 67.0
11.56000, 64.0
11.63000, 64.0
11.70000, 56.0
11.77000, 60.0
11.84000, 59.0
11.91000, 60.0
11.98000, 54.0
12.05000, 41.0
12.12000, 44.0
12.19000, 47.0
12.26000, 39.0
12.33000, 46.0
12.40000, 43.0
12.47000, 35.0
12.54000, 39.0
12.61000, 28.0
12.68000, 38.0
12.75000, 37.0
12.82000, 36.0
12.89000, 40.0
12.96000, 39.0
13.03000, 35.0
13.10000, 47.0
13.17000, 40.0
13.24000, 30.0
13.31000, 38.0
13.38000, 37.0
13.45000, 36.0
13.52000, 29.0
13.59000, 24.0
13.66000, 36.0
13.73000, 37.0
13.80000, 26.0
13.87000, 37.0
13.94000, 30.0
14.01000, 34.0
14.08000, 28.0
14.15000, 24.0
14.22000, 28.0
14.29000, 26.0
14.36000, 24.0
14.43000, 19.0
14.50000, 30.0
14.57000, 27.0
14.64000, 22.0
14.71000, 18.0
14.78000, 16.0
14.85000, 18.0
14.92000, 22.0
14.99000, 15.0
15.06000, 20.0
15.13000, 19.0
15.20000, 19.0
15.27000, 19.0
15.34000, 13.0
15.41000, 20.0
15.48000, 13.0
15.55000, 14.0
15.62000, 13.0
15.69000, 13.0
15.76000, 14.0
15.83000, 14.0
15.90000, 11.0
15.97000, 11.0
16.04000, 14.0
16.11000, 14.0
16.18000, 10.0
16.25000, 12.0
16.32000, 11.0
16.39000, 11.0
16.46000, 9.0
16.53000, 9.0
16.60000, 11.0
16.67000, 12.0
16.74000, 8.0
16.81000, 7.0
16.88000, 14.0
16.95000, 8.0
17.02000, 5.0
17.09000, 7.0
17.16000, 7.0
17.23000, 4.0
17.30000, 7.0
17.37000, 6.0
17.44000, 7.0
17.51000, 8.0
17.58000, 5.0
17.65000, 5.0
17.72000, 6.0
17.79000, 7.0
17.86000, 2.0
17.93000, 7.0
18.00000, 5.0
18.07000, 4.0
18.14000, 2.0
18.21000, 6.0
18.28000, 3.0
18.35000, 3.0
18.42000, 3.0
18.49000, 3.0
18.56000, 2.0
18.63000, 3.0
18.70000, 3.0
18.77000, 2.0
18.84000, 4.0
18.91000, 2.0
18.98000, 1.0
19.05000, 3.0
19.12000, 1.0
19.19000, 2.0
19.26000, 2.0
19.33000, 1.0
19.40000, 1.0
19.47000, 1.0
19.54000, 0.0
19.61000, 1.0
19.68000, 1.0
19.75000, 1.0
19.82000, 0.0
19.89000, 1.0
19.96000, 1.0
20.03000, 0.0
20.10000, 0.0
20.17000, 1.0
20.24000, 0.0
20.27000, 0.0
#ENDOFDATA   :

File: 19.msa
#FORMAT      : EMSA/MAS Spectral Data File
#VERSION     : 1.0
#TITLE       : 19
#DATE        : 02-FEB-2022
#TIME        : 16:21
#OWNER       :
#NPOINTS     : 2048.0
#NCOLUMNS    : 1.0
#XUNITS      : keV
#YUNITS      : counts
#DATATYPE    : XY
#XPERCHAN    : 0.01
#OFFSET      : -0.2
#SIGNALTYPE  : EDS_SEM
#CHOFFSET    : 20.0
#LIVETIME    : 20.0
#REALTIME    : 23.9437
#BEAMKV      : 20.0
#PROBECUR    : 1.386081
#MAGCAM      : 299.0
#XTILTSTGE   : 0.0
#AZIMANGLE   : 0.0
#ELEVANGLE   : 35.0
#XPOSITION mm: -10.3467
#YPOSITION mm: -9.5703
#ZPOSITION mm: 12.0498
##OXINSTPT   : 5
##OXINSTSTROB: 37.22
##OXINSTNDET : 1
##OXINSTELEMS: 6,8,16,20
##OXINSTLABEL: 6, 0.277, C K?1,2
##OXINSTLABEL: 8, 0.525, O K?1
##OXINSTLABEL: 16, 2.308, S K?1
##OXINSTLABEL: 16, 2.464, S K?1
##OXINSTLABEL: 20, 0.303, Ca Ll
##OXINSTLABEL: 20, 3.692, Ca K?1
##OXINSTLABEL: 20, 4.013, Ca K?1
##OXINSTLABEL: 20, 0.345, Ca L?1
#SPECTRUM    : Spectral Data Starts Here
-0.20000, 0.0
-0.13000, 0.0
-0.06000, 1.0
0.01000, 727.0
0.08000, 154.0
0.15000, 152.0
0.22000, 1050.0
0.29000, 3348.0
0.36000, 142.0
0.43000, 205.0
0.50000, 5187.0
0.57000, 931.0
0.64000, 121.0
0.71000, 138.0
0.78000, 173.0
0.85000, 219.0
0.92000, 265.0
0.99000, 337.0
1.06000, 322.0
1.13000, 323.0
1.20000, 352.0
1.27000, 450.0
1.34000, 333.0
1.41000, 378.0
1.48000, 484.0
1.55000, 423.0
1.62000, 420.0
1.69000, 437.0
1.76000, 529.0
1.83000, 462.0
1.90000, 482.0
1.97000, 628.0
2.04000, 407.0
2.11000, 390.0
2.18000, 379.0
2.25000, 484.0
2.32000, 626.0
2.39000, 401.0
2.46000, 370.0
2.53000, 366.0
2.60000, 336.0
2.67000, 354.0
2.74000, 322.0
2.81000, 346.0
2.88000, 337.0
2.95000, 302.0
3.02000, 316.0
3.09000, 296.0
3.16000, 292.0
3.23000, 287.0
3.30000, 314.0
3.37000, 299.0
3.44000, 272.0
3.51000, 443.0
3.58000, 1172.0
3.65000, 12572.0
3.72000, 18850.0
3.79000, 2346.0
3.86000, 313.0
3.93000, 700.0
4.00000, 2590.0
4.07000, 1496.0
4.14000, 273.0
4.21000, 173.0
4.28000, 161.0
4.35000, 175.0
4.42000, 215.0
4.49000, 244.0
4.56000, 153.0
4.63000, 151.0
4.70000, 156.0
4.77000, 169.0
4.84000, 184.0
4.91000, 161.0
4.98000, 162.0
5.05000, 133.0
5.12000, 149.0
5.19000, 148.0
5.26000, 142.0
5.33000, 124.0
5.40000, 129.0
5.47000, 126.0
5.54000, 114.0
5.61000, 108.0
5.68000, 134.0
5.75000, 121.0
5.82000, 105.0
5.89000, 114.0
5.96000, 107.0
6.03000, 112.0
6.10000, 133.0
6.17000, 118.0
6.24000, 98.0
6.31000, 94.0
6.38000, 95.0
6.45000, 95.0
6.52000, 104.0
6.59000, 87.0
6.66000, 90.0
6.73000, 106.0
6.80000, 97.0
6.87000, 92.0
6.94000, 106.0
7.01000, 85.0
7.08000, 89.0
7.15000, 75.0
7.22000, 86.0
7.29000, 99.0
7.36000, 134.0
7.43000, 129.0
7.50000, 75.0
7.57000, 101.0
7.64000, 79.0
7.71000, 82.0
7.78000, 70.0
7.85000, 76.0
7.92000, 75.0
7.99000, 84.0
8.06000, 83.0
8.13000, 69.0
8.20000, 70.0
8.27000, 60.0
8.34000, 69.0
8.41000, 58.0
8.48000, 73.0
8.55000, 71.0
8.62000, 74.0
8.69000, 77.0
8.76000, 58.0
8.83000, 50.0
8.90000, 57.0
8.97000, 45.0
9.04000, 62.0
9.11000, 45.0
9.18000, 47.0
9.25000, 46.0
9.32000, 58.0
9.39000, 40.0
9.46000, 50.0
9.53000, 51.0
9.60000, 42.0
9.67000, 48.0
9.74000, 37.0
9.81000, 50.0
9.88000, 50.0
9.95000, 42.0
10.02000, 54.0
10.09000, 46.0
10.16000, 37.0
10.23000, 36.0
10.30000, 37.0
10.37000, 45.0
10.44000, 32.0
10.51000, 39.0
10.58000, 34.0
10.65000, 40.0
10.72000, 30.0
10.79000, 20.0
10.86000, 27.0
10.93000, 38.0
11.00000, 42.0
11.07000, 28.0
11.14000, 26.0
11.21000, 39.0
11.28000, 37.0
11.35000, 36.0
11.42000, 27.0
11.49000, 29.0
11.56000, 28.0
11.63000, 35.0
11.70000, 27.0
11.77000, 34.0
11.84000, 28.0
11.91000, 25.0
11.98000, 24.0
12.05000, 30.0
12.12000, 29.0
12.19000, 31.0
12.26000, 23.0
12.33000, 21.0
12.40000, 23.0
12.47000, 20.0
12.54000, 18.0
12.61000, 12.0
12.68000, 18.0
12.75000, 21.0
12.82000, 17.0
12.89000, 24.0
12.96000, 20.0
13.03000, 18.0
13.10000, 19.0
13.17000, 8.0
13.24000, 17.0
13.31000, 14.0
13.38000, 10.0
13.45000, 21.0
13.52000, 20.0
13.59000, 15.0
13.66000, 13.0
13.73000, 13.0
13.80000, 17.0
13.87000, 18.0
13.94000, 17.0
14.01000, 10.0
14.08000, 9.0
14.15000, 13.0
14.22000, 11.0
14.29000, 11.0
14.36000, 13.0
14.43000, 12.0
14.50000, 15.0
14.57000, 13.0
14.64000, 8.0
14.71000, 11.0
14.78000, 7.0
14.85000, 10.0
14.92000, 8.0
14.99000, 9.0
15.06000, 16.0
15.13000, 5.0
15.20000, 4.0
15.27000, 11.0
15.34000, 3.0
15.41000, 10.0
15.48000, 10.0
15.55000, 5.0
15.62000, 9.0
15.69000, 5.0
15.76000, 5.0
15.83000, 6.0
15.90000, 8.0
15.97000, 8.0
16.04000, 9.0
16.11000, 7.0
16.18000, 5.0
16.25000, 6.0
16.32000, 3.0
16.39000, 4.0
16.46000, 8.0
16.53000, 3.0
16.60000, 5.0
16.67000, 7.0
16.74000, 6.0
16.81000, 3.0
16.88000, 3.0
16.95000, 3.0
17.02000, 3.0
17.09000, 3.0
17.16000, 3.0
17.23000, 3.0
17.30000, 2.0
17.37000, 5.0
17.44000, 4.0
17.51000, 4.0
17.58000, 5.0
17.65000, 2.0
17.72000, 1.0
17.79000, 2.0
17.86000, 2.0
17.93000, 3.0
18.00000, 2.0
18.07000, 1.0
18.14000, 1.0
18.21000, 2.0
18.28000, 1.0
18.35000, 1.0
18.42000, 1.0
18.49000, 0.0
18.56000, 0.0
18.63000, 2.0
18.70000, 1.0
18.77000, 2.0
18.84000, 0.0
18.91000, 0.0
18.98000, 1.0
19.05000, 1.0
19.12000, 1.0
19.19000, 1.0
19.26000, 0.0
19.33000, 1.0
19.40000, 1.0
19.47000, 1.0
19.54000, 0.0
19.61000, 0.0
19.68000, 0.0
19.75000, 0.0
19.82000, 0.0
19.89000, 0.0
19.96000, 0.0
20.03000, 0.0
20.10000, 0.0
20.17000, 0.0
20.24000, 0.0
20.27000, 0.0
#ENDOFDATA   :

File: 21.msa
#FORMAT      : EMSA/MAS Spectral Data File
#VERSION     : 1.0
#TITLE       : 21
#DATE        : 02-FEB-2022
#TIME        : 16:19
#OWNER       :
#NPOINTS     : 2048.0
#NCOLUMNS    : 1.0
#XUNITS      : keV
#YUNITS      : counts
#DATATYPE    : XY
#XPERCHAN    : 0.01
#OFFSET      : -0.2
#SIGNALTYPE  : EDS_SEM
#CHOFFSET    : 20.0
#LIVETIME    : 20.0
#REALTIME    : 22.3934
#BEAMKV      : 20.0
#PROBECUR    : 1.268864
#MAGCAM      : 299.0
#XTILTSTGE   : 0.0
#AZIMANGLE   : 0.0
#ELEVANGLE   : 35.0
#XPOSITION mm: -10.3467
#YPOSITION mm: -9.5703
#ZPOSITION mm: 12.0498
##OXINSTPT   : 5
##OXINSTSTROB: 37.37
##OXINSTNDET : 1
##OXINSTELEMS: 6,8,13,14,16,20,30,56
##OXINSTLABEL: 6, 0.277, C K?1,2
##OXINSTLABEL: 8, 0.525, O K?1
##OXINSTLABEL: 13, 1.487, Al K?1
##OXINSTLABEL: 14, 1.740, Si K?1
##OXINSTLABEL: 16, 2.308, S K?1
##OXINSTLABEL: 16, 2.464, S K?1
##OXINSTLABEL: 20, 0.303, Ca Ll
##OXINSTLABEL: 20, 3.692, Ca K?1
##OXINSTLABEL: 20, 4.013, Ca K?1
##OXINSTLABEL: 20, 0.345, Ca L?1
##OXINSTLABEL: 30, 8.639, Zn K?1
##OXINSTLABEL: 30, 9.572, Zn K?1
##OXINSTLABEL: 30, 1.012, Zn L?1,2
##OXINSTLABEL: 30, 0.906, Zn L?
##OXINSTLABEL: 30, 0.884, Zn Ll
##OXINSTLABEL: 56, 4.466, Ba L?1
##OXINSTLABEL: 56, 4.828, Ba L?1
##OXINSTLABEL: 56, 5.157, Ba L?2,15
##OXINSTLABEL: 56, 4.331, Ba L?
##OXINSTLABEL: 56, 5.531, Ba L?1
##OXINSTLABEL: 56, 5.797, Ba L?2
##OXINSTLABEL: 56, 3.954, Ba Ll
##OXINSTLABEL: 56, 0.780, Ba M?
##OXINSTLABEL: 56, 0.601, Ba M?
##OXINSTLABEL: 56, 0.075, Ba N5-O3
#SPECTRUM    : Spectral Data Starts Here
-0.20000, 0.0
-0.13000, 0.0
-0.06000, 1.0
0.01000, 727.0
0.08000, 132.0
0.15000, 92.0
0.22000, 459.0
0.29000, 1477.0
0.36000, 47.0
0.43000, 109.0
0.50000, 2544.0
0.57000, 555.0
0.64000, 85.0
0.71000, 84.0
0.78000, 169.0
0.85000, 125.0
0.92000, 139.0
0.99000, 688.0
1.06000, 570.0
1.13000, 153.0
1.20000, 137.0
1.27000, 164.0
1.34000, 143.0
1.41000, 213.0
1.48000, 1752.0
1.55000, 426.0
1.62000, 184.0
1.69000, 665.0
1.76000, 1809.0
1.83000, 388.0
1.90000, 201.0
1.97000, 162.0
2.04000, 170.0
2.11000, 193.0
2.18000, 265.0
2.25000, 1096.0
2.32000, 3440.0
2.39000, 575.0
2.46000, 400.0
2.53000, 237.0
2.60000, 247.0
2.67000, 233.0
2.74000, 207.0
2.81000, 197.0
2.88000, 172.0
2.95000, 186.0
3.02000, 187.0
3.09000, 187.0
3.16000, 206.0
3.23000, 198.0
3.30000, 267.0
3.37000, 238.0
3.44000, 190.0
3.51000, 208.0
3.58000, 207.0
3.65000, 412.0
3.72000, 574.0
3.79000, 254.0
3.86000, 206.0
3.93000, 287.0
4.00000, 332.0
4.07000, 219.0
4.14000, 181.0
4.21000, 195.0
4.28000, 229.0
4.35000, 293.0
4.42000, 1724.0
4.49000, 2704.0
4.56000, 672.0
4.63000, 205.0
4.70000, 212.0
4.77000, 722.0
4.84000, 1514.0
4.91000, 795.0
4.98000, 345.0
5.05000, 229.0
5.12000, 487.0
5.19000, 547.0
5.26000, 210.0
5.33000, 146.0
5.40000, 146.0
5.47000, 213.0
5.54000, 288.0
5.61000, 195.0
5.68000, 125.0
5.75000, 164.0
5.82000, 166.0
5.89000, 154.0
5.96000, 132.0
6.03000, 119.0
6.10000, 111.0
6.17000, 107.0
6.24000, 108.0
6.31000, 129.0
6.38000, 141.0
6.45000, 140.0
6.52000, 100.0
6.59000, 101.0
6.66000, 123.0
6.73000, 85.0
6.80000, 108.0
6.87000, 100.0
6.94000, 103.0
7.01000, 112.0
7.08000, 97.0
7.15000, 101.0
7.22000, 83.0
7.29000, 86.0
7.36000, 113.0
7.43000, 90.0
7.50000, 90.0
7.57000, 90.0
7.64000, 95.0
7.71000, 109.0
7.78000, 73.0
7.85000, 93.0
7.92000, 85.0
7.99000, 89.0
8.06000, 85.0
8.13000, 90.0
8.20000, 78.0
8.27000, 79.0
8.34000, 89.0
8.41000, 81.0
8.48000, 120.0
8.55000, 272.0
8.62000, 484.0
8.69000, 328.0
8.76000, 137.0
8.83000, 79.0
8.90000, 80.0
8.97000, 77.0
9.04000, 80.0
9.11000, 68.0
9.18000, 66.0
9.25000, 76.0
9.32000, 80.0
9.39000, 72.0
9.46000, 78.0
9.53000, 118.0
9.60000, 129.0
9.67000, 78.0
9.74000, 60.0
9.81000, 71.0
9.88000, 62.0
9.95000, 72.0
10.02000, 75.0
10.09000, 57.0
10.16000, 69.0
10.23000, 68.0
10.30000, 58.0
10.37000, 54.0
10.44000, 58.0
10.51000, 48.0
10.58000, 46.0
10.65000, 53.0
10.72000, 54.0
10.79000, 48.0
10.86000, 51.0
10.93000, 42.0
11.00000, 35.0
11.07000, 50.0
11.14000, 40.0
11.21000, 57.0
11.28000, 47.0
11.35000, 49.0
11.42000, 48.0
11.49000, 48.0
11.56000, 40.0
11.63000, 42.0
11.70000, 37.0
11.77000, 41.0
11.84000, 41.0
11.91000, 35.0
11.98000, 33.0
12.05000, 22.0
12.12000, 43.0
12.19000, 37.0
12.26000, 30.0
12.33000, 43.0
12.40000, 32.0
12.47000, 38.0
12.54000, 30.0
12.61000, 26.0
12.68000, 33.0
12.75000, 32.0
12.82000, 26.0
12.89000, 32.0
12.96000, 32.0
13.03000, 31.0
13.10000, 26.0
13.17000, 20.0
13.24000, 21.0
13.31000, 23.0
13.38000, 26.0
13.45000, 23.0
13.52000, 18.0
13.59000, 23.0
13.66000, 28.0
13.73000, 16.0
13.80000, 24.0
13.87000, 18.0
13.94000, 16.0
14.01000, 21.0
14.08000, 22.0
14.15000, 24.0
14.22000, 24.0
14.29000, 16.0
14.36000, 17.0
14.43000, 24.0
14.50000, 18.0
14.57000, 28.0
14.64000, 16.0
14.71000, 18.0
14.78000, 12.0
14.85000, 14.0
14.92000, 9.0
14.99000, 14.0
15.06000, 13.0
15.13000, 16.0
15.20000, 12.0
15.27000, 11.0
15.34000, 12.0
15.41000, 13.0
15.48000, 17.0
15.55000, 12.0
15.62000, 9.0
15.69000, 9.0
15.76000, 11.0
15.83000, 9.0
15.90000, 11.0
15.97000, 9.0
16.04000, 11.0
16.11000, 13.0
16.18000, 11.0
16.25000, 10.0
16.32000, 10.0
16.39000, 10.0
16.46000, 4.0
16.53000, 8.0
16.60000, 7.0
16.67000, 7.0
16.74000, 6.0
16.81000, 8.0
16.88000, 4.0
16.95000, 5.0
17.02000, 7.0
17.09000, 5.0
17.16000, 5.0
17.23000, 4.0
17.30000, 5.0
17.37000, 6.0
17.44000, 6.0
17.51000, 8.0
17.58000, 3.0
17.65000, 5.0
17.72000, 6.0
17.79000, 4.0
17.86000, 2.0
17.93000, 6.0
18.00000, 3.0
18.07000, 7.0
18.14000, 3.0
18.21000, 3.0
18.28000, 3.0
18.35000, 2.0
18.42000, 4.0
18.49000, 2.0
18.56000, 1.0
18.63000, 2.0
18.70000, 3.0
18.77000, 1.0
18.84000, 0.0
18.91000, 1.0
18.98000, 1.0
19.05000, 2.0
19.12000, 1.0
19.19000, 1.0
19.26000, 0.0
19.33000, 2.0
19.40000, 2.0
19.47000, 0.0
19.54000, 0.0
19.61000, 0.0
19.68000, 0.0
19.75000, 0.0
19.82000, 0.0
19.89000, 1.0
19.96000, 0.0
20.03000, 1.0
20.10000, 0.0
20.17000, 0.0
20.24000, 0.0
20.27000, 0.0
#ENDOFDATA   :